VARIABLES= Temp_[K], H-H298_[kcal/mol], G-H298_[kcal/mol], Cp_[cal/(mol-K)], S_[cal/(mol-K)], Viscosity_[gm/(cm-s)], Therm_Cond_[erg/(cm-s-K)], Dif_Co_with_H2_[cm^2/s]
   298.15    0.000    -13.465      8.03      45.16     1.0092E-04  2590.          0.8486    
   300.00    0.015    -13.548      8.03      45.21     1.0162E-04  2609.          0.8585    
   310.00    0.095    -14.002      8.04      45.47     1.0540E-04  2708.          0.9130    
   320.00    0.176    -14.458      8.05      45.73     1.0919E-04  2809.          0.9689    
   330.00    0.256    -14.916      8.07      45.98     1.1299E-04  2911.           1.026    
   340.00    0.337    -15.377      8.08      46.22     1.1678E-04  3014.           1.085    
   350.00    0.418    -15.840      8.10      46.45     1.2059E-04  3118.           1.144    
   360.00    0.499    -16.306      8.12      46.68     1.2439E-04  3224.           1.206    
   370.00    0.580    -16.774      8.13      46.90     1.2819E-04  3331.           1.268    
   380.00    0.662    -17.244      8.15      47.12     1.3200E-04  3439.           1.332    
   390.00    0.743    -17.716      8.17      47.33     1.3581E-04  3549.           1.397    
   400.00    0.825    -18.191      8.19      47.54     1.3962E-04  3659.           1.463    
   410.00    0.907    -18.667      8.21      47.74     1.4342E-04  3770.           1.530    
   420.00    0.989    -19.146      8.23      47.94     1.4723E-04  3883.           1.599    
   430.00    1.072    -19.626      8.25      48.13     1.5104E-04  3997.           1.669    
   440.00    1.154    -20.108      8.27      48.32     1.5484E-04  4111.           1.739    
   450.00    1.237    -20.592      8.30      48.51     1.5865E-04  4227.           1.812    
   460.00    1.320    -21.078      8.32      48.69     1.6245E-04  4344.           1.885    
   470.00    1.404    -21.566      8.34      48.87     1.6626E-04  4461.           1.959    
   480.00    1.487    -22.056      8.37      49.05     1.7005E-04  4580.           2.035    
   490.00    1.571    -22.547      8.39      49.22     1.7385E-04  4699.           2.111    
   500.00    1.655    -23.040      8.42      49.39     1.7765E-04  4820.           2.189    
   510.00    1.739    -23.535      8.44      49.56     1.8144E-04  4941.           2.268    
   520.00    1.824    -24.031      8.47      49.72     1.8523E-04  5063.           2.348    
   530.00    1.909    -24.530      8.49      49.88     1.8901E-04  5186.           2.429    
   540.00    1.994    -25.029      8.52      50.04     1.9279E-04  5310.           2.511    
   550.00    2.079    -25.530      8.55      50.20     1.9657E-04  5435.           2.594    
   560.00    2.165    -26.033      8.57      50.35     2.0035E-04  5560.           2.678    
   570.00    2.251    -26.537      8.60      50.51     2.0412E-04  5687.           2.764    
   580.00    2.337    -27.043      8.63      50.65     2.0789E-04  5814.           2.850    
   590.00    2.423    -27.551      8.65      50.80     2.1165E-04  5942.           2.937    
   600.00    2.510    -28.059      8.68      50.95     2.1541E-04  6070.           3.026    
   610.00    2.597    -28.569      8.71      51.09     2.1916E-04  6200.           3.115    
   620.00    2.684    -29.081      8.74      51.23     2.2291E-04  6330.           3.205    
   630.00    2.771    -29.594      8.76      51.37     2.2665E-04  6460.           3.297    
   640.00    2.859    -30.109      8.79      51.51     2.3039E-04  6592.           3.389    
   650.00    2.947    -30.624      8.82      51.65     2.3413E-04  6724.           3.482    
   660.00    3.036    -31.142      8.85      51.78     2.3786E-04  6857.           3.577    
   670.00    3.124    -31.660      8.88      51.92     2.4158E-04  6990.           3.672    
   680.00    3.213    -32.180      8.91      52.05     2.4530E-04  7124.           3.768    
   690.00    3.302    -32.701      8.94      52.18     2.4902E-04  7259.           3.865    
   700.00    3.392    -33.223      8.96      52.31     2.5273E-04  7394.           3.963    
   710.00    3.482    -33.747      8.99      52.43     2.5643E-04  7530.           4.062    
   720.00    3.572    -34.272      9.02      52.56     2.6013E-04  7666.           4.162    
   730.00    3.662    -34.798      9.05      52.69     2.6382E-04  7803.           4.263    
   740.00    3.753    -35.326      9.08      52.81     2.6751E-04  7941.           4.365    
   750.00    3.844    -35.855      9.11      52.93     2.7119E-04  8079.           4.468    
   760.00    3.935    -36.384      9.14      53.05     2.7486E-04  8218.           4.572    
   770.00    4.027    -36.916      9.17      53.17     2.7853E-04  8357.           4.676    
   780.00    4.118    -37.448      9.20      53.29     2.8219E-04  8497.           4.782    
   790.00    4.211    -37.981      9.23      53.41     2.8585E-04  8637.           4.888    
   800.00    4.303    -38.516      9.26      53.52     2.8950E-04  8778.           4.995    
   810.00    4.396    -39.052      9.29      53.64     2.9315E-04  8919.           5.104    
   820.00    4.489    -39.589      9.32      53.75     2.9679E-04  9060.           5.213    
   830.00    4.582    -40.127      9.35      53.87     3.0042E-04  9203.           5.323    
   840.00    4.676    -40.666      9.38      53.98     3.0405E-04  9345.           5.433    
   850.00    4.770    -41.206      9.41      54.09     3.0767E-04  9488.           5.545    
   860.00    4.864    -41.748      9.44      54.20     3.1128E-04  9632.           5.658    
   870.00    4.958    -42.290      9.47      54.31     3.1489E-04  9775.           5.771    
   880.00    5.053    -42.834      9.50      54.42     3.1850E-04  9920.           5.885    
   890.00    5.148    -43.379      9.53      54.52     3.2209E-04 1.0064E+04       6.000    
   900.00    5.244    -43.925      9.56      54.63     3.2568E-04 1.0209E+04       6.116    
   910.00    5.339    -44.471      9.59      54.74     3.2927E-04 1.0355E+04       6.233    
   920.00    5.435    -45.019      9.62      54.84     3.3284E-04 1.0501E+04       6.351    
   930.00    5.532    -45.568      9.65      54.95     3.3641E-04 1.0647E+04       6.469    
   940.00    5.628    -46.118      9.68      55.05     3.3998E-04 1.0793E+04       6.589    
   950.00    5.725    -46.669      9.71      55.15     3.4354E-04 1.0940E+04       6.709    
   960.00    5.823    -47.221      9.74      55.25     3.4709E-04 1.1087E+04       6.830    
   970.00    5.920    -47.774      9.77      55.36     3.5063E-04 1.1235E+04       6.951    
   980.00    6.018    -48.328      9.81      55.46     3.5417E-04 1.1383E+04       7.074    
   990.00    6.116    -48.883      9.84      55.56     3.5770E-04 1.1531E+04       7.198    
  1000.01    6.215    -49.440      9.87      55.65     3.6123E-04 1.1679E+04       7.322    
  1010.00    6.314    -49.997      9.90      55.75     3.6475E-04 1.1828E+04       7.447    
  1020.00    6.413    -50.555      9.94      55.85     3.6826E-04 1.1977E+04       7.573    
  1030.00    6.512    -51.114      9.97      55.95     3.7177E-04 1.2127E+04       7.699    
  1040.00    6.612    -51.673     10.00      56.04     3.7527E-04 1.2276E+04       7.827    
  1050.00    6.712    -52.234     10.04      56.14     3.7876E-04 1.2426E+04       7.955    
  1060.00    6.813    -52.796     10.07      56.24     3.8225E-04 1.2576E+04       8.084    
  1070.00    6.914    -53.359     10.10      56.33     3.8573E-04 1.2727E+04       8.214    
  1080.00    7.015    -53.923     10.13      56.42     3.8920E-04 1.2877E+04       8.344    
  1090.00    7.116    -54.488     10.16      56.52     3.9267E-04 1.3028E+04       8.476    
  1100.00    7.218    -55.053     10.20      56.61     3.9613E-04 1.3179E+04       8.608    
  1110.00    7.320    -55.620     10.23      56.70     3.9959E-04 1.3331E+04       8.741    
  1120.00    7.423    -56.187     10.26      56.79     4.0304E-04 1.3482E+04       8.875    
  1130.00    7.525    -56.756     10.29      56.89     4.0648E-04 1.3634E+04       9.009    
  1140.00    7.629    -57.325     10.32      56.98     4.0991E-04 1.3786E+04       9.144    
  1150.00    7.732    -57.895     10.35      57.07     4.1334E-04 1.3938E+04       9.280    
  1160.00    7.836    -58.466     10.38      57.16     4.1676E-04 1.4090E+04       9.417    
  1170.00    7.940    -59.038     10.41      57.25     4.2018E-04 1.4243E+04       9.555    
  1180.00    8.044    -59.611     10.44      57.33     4.2359E-04 1.4396E+04       9.693    
  1190.00    8.148    -60.185     10.47      57.42     4.2699E-04 1.4549E+04       9.832    
  1200.00    8.253    -60.760     10.50      57.51     4.3038E-04 1.4702E+04       9.972    
  1210.00    8.358    -61.335     10.53      57.60     4.3377E-04 1.4855E+04       10.11    
  1220.00    8.464    -61.912     10.56      57.68     4.3716E-04 1.5008E+04       10.25    
  1230.00    8.570    -62.489     10.59      57.77     4.4053E-04 1.5162E+04       10.40    
  1240.00    8.676    -63.067     10.62      57.86     4.4390E-04 1.5315E+04       10.54    
  1250.00    8.782    -63.646     10.65      57.94     4.4727E-04 1.5469E+04       10.68    
  1260.00    8.889    -64.226     10.68      58.03     4.5062E-04 1.5623E+04       10.83    
  1270.00    8.996    -64.807     10.71      58.11     4.5397E-04 1.5777E+04       10.97    
  1280.00    9.103    -65.388     10.73      58.20     4.5732E-04 1.5932E+04       11.12    
  1290.00    9.210    -65.971     10.76      58.28     4.6066E-04 1.6086E+04       11.26    
  1300.00    9.318    -66.554     10.79      58.36     4.6399E-04 1.6240E+04       11.41    
  1310.00    9.426    -67.138     10.82      58.45     4.6731E-04 1.6395E+04       11.56    
  1320.00    9.534    -67.723     10.85      58.53     4.7063E-04 1.6549E+04       11.71    
  1330.00    9.643    -68.308     10.87      58.61     4.7394E-04 1.6704E+04       11.86    
  1340.00    9.752    -68.895     10.90      58.69     4.7725E-04 1.6859E+04       12.01    
  1350.00    9.861    -69.482     10.93      58.77     4.8055E-04 1.7014E+04       12.16    
  1360.00    9.970    -70.070     10.95      58.85     4.8384E-04 1.7169E+04       12.31    
  1370.00   10.080    -70.659     10.98      58.93     4.8712E-04 1.7324E+04       12.46    
  1380.00   10.190    -71.249     11.01      59.01     4.9040E-04 1.7479E+04       12.61    
  1390.00   10.300    -71.840     11.03      59.09     4.9368E-04 1.7634E+04       12.77    
  1400.00   10.411    -72.431     11.06      59.17     4.9695E-04 1.7790E+04       12.92    
  1410.00   10.521    -73.023     11.09      59.25     5.0021E-04 1.7945E+04       13.08    
  1420.00   10.632    -73.616     11.11      59.33     5.0346E-04 1.8100E+04       13.23    
  1430.00   10.744    -74.210     11.14      59.41     5.0671E-04 1.8256E+04       13.39    
  1440.00   10.855    -74.804     11.16      59.49     5.0995E-04 1.8411E+04       13.55    
  1450.00   10.967    -75.399     11.19      59.56     5.1319E-04 1.8567E+04       13.70    
  1460.00   11.079    -75.995     11.21      59.64     5.1642E-04 1.8722E+04       13.86    
  1470.00   11.191    -76.592     11.24      59.72     5.1964E-04 1.8878E+04       14.02    
  1480.00   11.304    -77.190     11.26      59.79     5.2286E-04 1.9034E+04       14.18    
  1490.00   11.416    -77.788     11.29      59.87     5.2607E-04 1.9189E+04       14.34    
  1500.00   11.529    -78.387     11.31      59.94     5.2927E-04 1.9345E+04       14.50    
  1510.00   11.643    -78.987     11.34      60.02     5.3247E-04 1.9501E+04       14.67    
  1520.00   11.756    -79.587     11.36      60.09     5.3566E-04 1.9656E+04       14.83    
  1530.00   11.870    -80.189     11.39      60.17     5.3885E-04 1.9812E+04       14.99    
  1540.00   11.984    -80.791     11.41      60.24     5.4203E-04 1.9968E+04       15.16    
  1550.00   12.098    -81.394     11.43      60.32     5.4520E-04 2.0123E+04       15.32    
  1560.00   12.213    -81.997     11.46      60.39     5.4837E-04 2.0279E+04       15.49    
  1570.00   12.327    -82.601     11.48      60.46     5.5153E-04 2.0435E+04       15.65    
  1580.00   12.442    -83.206     11.50      60.54     5.5468E-04 2.0591E+04       15.82    
  1590.00   12.557    -83.812     11.53      60.61     5.5783E-04 2.0746E+04       15.99    
  1600.00   12.673    -84.419     11.55      60.68     5.6097E-04 2.0902E+04       16.15    
  1610.00   12.788    -85.026     11.57      60.75     5.6411E-04 2.1058E+04       16.32    
  1620.00   12.904    -85.634     11.60      60.83     5.6724E-04 2.1213E+04       16.49    
  1630.00   13.020    -86.242     11.62      60.90     5.7037E-04 2.1369E+04       16.66    
  1640.00   13.137    -86.852     11.64      60.97     5.7349E-04 2.1524E+04       16.83    
  1650.00   13.253    -87.462     11.66      61.04     5.7660E-04 2.1680E+04       17.00    
  1660.00   13.370    -88.072     11.68      61.11     5.7970E-04 2.1835E+04       17.18    
  1670.00   13.487    -88.684     11.71      61.18     5.8280E-04 2.1991E+04       17.35    
  1680.00   13.604    -89.296     11.73      61.25     5.8590E-04 2.2146E+04       17.52    
  1690.00   13.721    -89.909     11.75      61.32     5.8899E-04 2.2302E+04       17.70    
  1700.00   13.839    -90.522     11.77      61.39     5.9207E-04 2.2457E+04       17.87    
  1710.00   13.957    -91.137     11.79      61.46     5.9515E-04 2.2612E+04       18.05    
  1720.00   14.075    -91.752     11.81      61.53     5.9822E-04 2.2767E+04       18.22    
  1730.00   14.193    -92.367     11.83      61.60     6.0128E-04 2.2922E+04       18.40    
  1740.00   14.311    -92.983     11.86      61.66     6.0434E-04 2.3078E+04       18.58    
  1750.00   14.430    -93.600     11.88      61.73     6.0739E-04 2.3233E+04       18.76    
  1760.00   14.549    -94.218     11.90      61.80     6.1044E-04 2.3388E+04       18.93    
  1770.00   14.668    -94.836     11.92      61.87     6.1348E-04 2.3542E+04       19.11    
  1780.00   14.787    -95.455     11.94      61.93     6.1652E-04 2.3697E+04       19.29    
  1790.00   14.907    -96.075     11.96      62.00     6.1955E-04 2.3852E+04       19.47    
  1800.00   15.027    -96.695     11.98      62.07     6.2257E-04 2.4007E+04       19.66    
  1810.00   15.146    -97.316     12.00      62.13     6.2559E-04 2.4161E+04       19.84    
  1820.00   15.267    -97.938     12.02      62.20     6.2860E-04 2.4316E+04       20.02    
  1830.00   15.387    -98.560     12.04      62.27     6.3161E-04 2.4470E+04       20.20    
  1840.00   15.507    -99.183     12.06      62.33     6.3461E-04 2.4624E+04       20.39    
  1850.00   15.628    -99.807     12.08      62.40     6.3760E-04 2.4779E+04       20.57    
  1860.00   15.749   -100.431     12.10      62.46     6.4059E-04 2.4933E+04       20.76    
  1870.00   15.870   -101.056     12.11      62.53     6.4358E-04 2.5087E+04       20.94    
  1880.00   15.991   -101.682     12.13      62.59     6.4655E-04 2.5241E+04       21.13    
  1890.00   16.113   -102.308     12.15      62.66     6.4953E-04 2.5395E+04       21.32    
  1900.00   16.234   -102.935     12.17      62.72     6.5249E-04 2.5548E+04       21.50    
  1910.00   16.356   -103.563     12.19      62.78     6.5545E-04 2.5702E+04       21.69    
  1920.00   16.478   -104.191     12.21      62.85     6.5841E-04 2.5856E+04       21.88    
  1930.00   16.600   -104.820     12.23      62.91     6.6136E-04 2.6009E+04       22.07    
  1940.00   16.722   -105.449     12.24      62.97     6.6430E-04 2.6162E+04       22.26    
  1950.00   16.845   -106.079     12.26      63.04     6.6724E-04 2.6315E+04       22.45    
  1960.00   16.968   -106.710     12.28      63.10     6.7017E-04 2.6469E+04       22.64    
  1970.00   17.091   -107.341     12.30      63.16     6.7310E-04 2.6621E+04       22.84    
  1980.00   17.214   -107.973     12.32      63.23     6.7602E-04 2.6774E+04       23.03    
  1990.00   17.337   -108.606     12.33      63.29     6.7894E-04 2.6927E+04       23.22    
  2000.00   17.460   -109.239     12.35      63.35     6.8185E-04 2.7080E+04       23.42    
  2010.00   17.584   -109.873     12.37      63.41     6.8475E-04 2.7232E+04       23.61    
  2020.00   17.708   -110.507     12.39      63.47     6.8765E-04 2.7384E+04       23.81    
  2030.00   17.832   -111.142     12.40      63.53     6.9054E-04 2.7537E+04       24.00    
  2040.00   17.956   -111.778     12.42      63.59     6.9343E-04 2.7689E+04       24.20    
  2050.00   18.080   -112.414     12.44      63.66     6.9632E-04 2.7841E+04       24.39    
  2060.00   18.205   -113.051     12.45      63.72     6.9919E-04 2.7992E+04       24.59    
  2070.00   18.329   -113.688     12.47      63.78     7.0207E-04 2.8144E+04       24.79    
  2080.00   18.454   -114.326     12.49      63.84     7.0493E-04 2.8296E+04       24.99    
  2090.00   18.579   -114.965     12.50      63.90     7.0779E-04 2.8447E+04       25.19    
  2100.00   18.704   -115.604     12.52      63.96     7.1065E-04 2.8598E+04       25.39    
  2110.00   18.829   -116.244     12.54      64.02     7.1350E-04 2.8749E+04       25.59    
  2120.00   18.955   -116.885     12.55      64.08     7.1634E-04 2.8900E+04       25.79    
  2130.00   19.080   -117.526     12.57      64.13     7.1918E-04 2.9051E+04       25.99    
  2140.00   19.206   -118.167     12.58      64.19     7.2202E-04 2.9202E+04       26.20    
  2150.00   19.332   -118.809     12.60      64.25     7.2485E-04 2.9352E+04       26.40    
  2160.00   19.458   -119.452     12.61      64.31     7.2767E-04 2.9503E+04       26.60    
  2170.00   19.584   -120.096     12.63      64.37     7.3049E-04 2.9653E+04       26.81    
  2180.00   19.711   -120.740     12.65      64.43     7.3330E-04 2.9803E+04       27.01    
  2190.00   19.837   -121.384     12.66      64.48     7.3611E-04 2.9953E+04       27.22    
  2200.00   19.964   -122.029     12.68      64.54     7.3891E-04 3.0102E+04       27.42    
  2210.00   20.091   -122.675     12.69      64.60     7.4171E-04 3.0252E+04       27.63    
  2220.00   20.218   -123.321     12.71      64.66     7.4450E-04 3.0401E+04       27.84    
  2230.00   20.345   -123.968     12.72      64.71     7.4729E-04 3.0551E+04       28.05    
  2240.00   20.472   -124.616     12.73      64.77     7.5007E-04 3.0700E+04       28.26    
  2250.00   20.599   -125.264     12.75      64.83     7.5285E-04 3.0849E+04       28.46    
  2260.00   20.727   -125.912     12.76      64.88     7.5562E-04 3.0997E+04       28.67    
  2270.00   20.855   -126.561     12.78      64.94     7.5839E-04 3.1146E+04       28.89    
  2280.00   20.983   -127.211     12.79      65.00     7.6115E-04 3.1294E+04       29.10    
  2290.00   21.111   -127.861     12.81      65.05     7.6391E-04 3.1442E+04       29.31    
  2300.00   21.239   -128.512     12.82      65.11     7.6666E-04 3.1590E+04       29.52    
  2310.00   21.367   -129.163     12.83      65.16     7.6940E-04 3.1738E+04       29.73    
  2320.00   21.495   -129.815     12.85      65.22     7.7214E-04 3.1886E+04       29.95    
  2330.00   21.624   -130.468     12.86      65.28     7.7488E-04 3.2033E+04       30.16    
  2340.00   21.753   -131.121     12.88      65.33     7.7761E-04 3.2181E+04       30.38    
  2350.00   21.882   -131.774     12.89      65.39     7.8034E-04 3.2328E+04       30.59    
  2360.00   22.010   -132.429     12.90      65.44     7.8306E-04 3.2475E+04       30.81    
  2370.00   22.140   -133.083     12.92      65.49     7.8577E-04 3.2622E+04       31.02    
  2380.00   22.269   -133.739     12.93      65.55     7.8848E-04 3.2768E+04       31.24    
  2390.00   22.398   -134.394     12.94      65.60     7.9119E-04 3.2915E+04       31.46    
  2400.00   22.528   -135.051     12.96      65.66     7.9389E-04 3.3061E+04       31.68    
  2410.00   22.657   -135.707     12.97      65.71     7.9659E-04 3.3207E+04       31.89    
  2420.00   22.787   -136.365     12.98      65.77     7.9928E-04 3.3353E+04       32.11    
  2430.00   22.917   -137.023     12.99      65.82     8.0196E-04 3.3498E+04       32.33    
  2440.00   23.047   -137.681     13.01      65.87     8.0464E-04 3.3644E+04       32.55    
  2450.00   23.177   -138.340     13.02      65.93     8.0732E-04 3.3789E+04       32.78    
  2460.00   23.307   -139.000     13.03      65.98     8.0999E-04 3.3934E+04       33.00    
  2470.00   23.438   -139.660     13.04      66.03     8.1266E-04 3.4079E+04       33.22    
  2480.00   23.568   -140.320     13.06      66.08     8.1532E-04 3.4224E+04       33.44    
  2490.00   23.699   -140.981     13.07      66.14     8.1798E-04 3.4368E+04       33.67    
  2500.00   23.830   -141.643     13.08      66.19     8.2063E-04 3.4513E+04       33.89    
  2510.00   23.960   -142.305     13.09      66.24     8.2328E-04 3.4657E+04       34.11    
  2520.00   24.091   -142.968     13.11      66.29     8.2592E-04 3.4801E+04       34.34    
  2530.00   24.223   -143.631     13.12      66.35     8.2856E-04 3.4944E+04       34.57    
  2540.00   24.354   -144.295     13.13      66.40     8.3119E-04 3.5088E+04       34.79    
  2550.00   24.485   -144.959     13.14      66.45     8.3382E-04 3.5231E+04       35.02    
  2560.00   24.617   -145.624     13.15      66.50     8.3644E-04 3.5374E+04       35.25    
  2570.00   24.748   -146.289     13.16      66.55     8.3906E-04 3.5517E+04       35.47    
  2580.00   24.880   -146.955     13.18      66.60     8.4167E-04 3.5660E+04       35.70    
  2590.00   25.012   -147.621     13.19      66.65     8.4428E-04 3.5802E+04       35.93    
  2600.00   25.144   -148.288     13.20      66.70     8.4688E-04 3.5944E+04       36.16    
  2610.00   25.276   -148.955     13.21      66.76     8.4948E-04 3.6086E+04       36.39    
  2620.00   25.408   -149.623     13.22      66.81     8.5208E-04 3.6228E+04       36.62    
  2630.00   25.540   -150.291     13.23      66.86     8.5467E-04 3.6370E+04       36.86    
  2640.00   25.672   -150.960     13.24      66.91     8.5725E-04 3.6511E+04       37.09    
  2650.00   25.805   -151.629     13.25      66.96     8.5983E-04 3.6653E+04       37.32    
  2660.00   25.937   -152.299     13.26      67.01     8.6241E-04 3.6794E+04       37.55    
  2670.00   26.070   -152.970     13.27      67.06     8.6498E-04 3.6934E+04       37.79    
  2680.00   26.203   -153.640     13.28      67.11     8.6755E-04 3.7075E+04       38.02    
  2690.00   26.336   -154.312     13.30      67.16     8.7011E-04 3.7215E+04       38.26    
  2700.00   26.469   -154.983     13.31      67.20     8.7267E-04 3.7356E+04       38.49    
  2710.00   26.602   -155.656     13.32      67.25     8.7522E-04 3.7495E+04       38.73    
  2720.00   26.735   -156.328     13.33      67.30     8.7777E-04 3.7635E+04       38.96    
  2730.00   26.868   -157.002     13.34      67.35     8.8031E-04 3.7775E+04       39.20    
  2740.00   27.002   -157.676     13.35      67.40     8.8285E-04 3.7914E+04       39.44    
  2750.00   27.135   -158.350     13.36      67.45     8.8539E-04 3.8053E+04       39.68    
  2760.00   27.269   -159.025     13.37      67.50     8.8792E-04 3.8192E+04       39.92    
  2770.00   27.403   -159.700     13.38      67.55     8.9044E-04 3.8331E+04       40.16    
  2780.00   27.537   -160.375     13.39      67.59     8.9297E-04 3.8469E+04       40.40    
  2790.00   27.670   -161.052     13.40      67.64     8.9548E-04 3.8607E+04       40.64    
  2800.00   27.804   -161.728     13.41      67.69     8.9800E-04 3.8745E+04       40.88    
  2810.00   27.939   -162.405     13.42      67.74     9.0050E-04 3.8883E+04       41.12    
  2820.00   28.073   -163.083     13.43      67.79     9.0301E-04 3.9020E+04       41.36    
  2830.00   28.207   -163.761     13.43      67.83     9.0551E-04 3.9158E+04       41.61    
  2840.00   28.341   -164.440     13.44      67.88     9.0800E-04 3.9295E+04       41.85    
  2850.00   28.476   -165.119     13.45      67.93     9.1049E-04 3.9432E+04       42.09    
  2860.00   28.611   -165.798     13.46      67.98     9.1298E-04 3.9568E+04       42.34    
  2870.00   28.745   -166.478     13.47      68.02     9.1546E-04 3.9705E+04       42.58    
  2880.00   28.880   -167.159     13.48      68.07     9.1794E-04 3.9841E+04       42.83    
  2890.00   29.015   -167.840     13.49      68.12     9.2041E-04 3.9977E+04       43.08    
  2900.00   29.150   -168.521     13.50      68.16     9.2288E-04 4.0113E+04       43.32    
  2910.00   29.285   -169.203     13.51      68.21     9.2534E-04 4.0248E+04       43.57    
  2920.00   29.420   -169.885     13.52      68.26     9.2780E-04 4.0383E+04       43.82    
  2930.00   29.555   -170.568     13.53      68.30     9.3026E-04 4.0518E+04       44.07    
  2940.00   29.690   -171.251     13.53      68.35     9.3271E-04 4.0653E+04       44.32    
  2950.00   29.826   -171.935     13.54      68.39     9.3515E-04 4.0788E+04       44.57    
  2960.00   29.961   -172.619     13.55      68.44     9.3760E-04 4.0922E+04       44.82    
  2970.00   30.097   -173.304     13.56      68.49     9.4004E-04 4.1056E+04       45.07    
  2980.00   30.233   -173.989     13.57      68.53     9.4247E-04 4.1190E+04       45.32    
  2990.00   30.368   -174.674     13.58      68.58     9.4490E-04 4.1324E+04       45.57    
  3000.00   30.504   -175.360     13.59      68.62     9.4733E-04 4.1457E+04       45.82    
